thisBlock,leftnum,rightnum,leftsize,rightsize,condition,corrAns,blocks.thisRepN,blocks.thisTrialN,blocks.thisN,blocks.thisIndex,trials.thisRepN,trials.thisTrialN,trials.thisN,trials.thisIndex,instructionstxt.started,start_resp.started,start_resp.keys,start_resp.rt,blocktxt.started,block_resp.started,block_resp.keys,block_resp.rt,left.started,right.started,key_resp.started,key_resp.keys,key_resp.corr,key_resp.rt,fbtxt.started,fbtxt.stopped,byetxt.started,byetxt.stopped,participant,session,date,expName,psychopyVersion,frameRate,
,,,,,,,,,,,,,,,8.132635300047696,8.132635300047696,space,0.6300531999440864,,,,,,,,,,,,,,,990492,001,2023-01-27_16h54.04.641,numberstroop,2022.2.4,60.064497272800374,
conditions1.xlsx,2,6,0.05,0.1,congruent,right,0,0,0,0,0,0,0,0,,,,,8.780789699987508,8.780789699987508,space,0.7243176999036223,9.70036210003309,9.70036210003309,9.70036210003309,right,1,0.6774290000321344,10.397316300077364,11.3986793999793,,,990492,001,2023-01-27_16h54.04.641,numberstroop,2022.2.4,60.064497272800374,
conditions1.xlsx,6,2,0.05,0.1,incongruent,left,0,0,0,0,0,1,1,3,,,,,,,,,11.3986793999793,11.3986793999793,11.3986793999793,left,1,0.36349529994186014,11.781561900046654,12.782525600050576,,,990492,001,2023-01-27_16h54.04.641,numberstroop,2022.2.4,60.064497272800374,
conditions1.xlsx,2,6,0.1,0.05,incongruent,right,0,0,0,0,0,2,2,2,,,,,,,,,12.782525600050576,12.782525600050576,12.782525600050576,right,1,0.3952139000175521,13.199637399986386,14.2005142000271,,,990492,001,2023-01-27_16h54.04.641,numberstroop,2022.2.4,60.064497272800374,
conditions1.xlsx,6,2,0.1,0.05,congruent,left,0,0,0,0,0,3,3,1,,,,,,,,,14.2005142000271,14.2005142000271,14.2005142000271,left,1,0.4662846999708563,14.684040199965239,15.68499179999344,,,990492,001,2023-01-27_16h54.04.641,numberstroop,2022.2.4,60.064497272800374,
conditions1.xlsx,6,2,0.05,0.1,incongruent,left,0,0,0,0,1,0,4,3,,,,,,,,,15.68499179999344,15.68499179999344,15.68499179999344,left,1,0.3966399999335408,16.102029800065793,17.10299310006667,,,990492,001,2023-01-27_16h54.04.641,numberstroop,2022.2.4,60.064497272800374,
conditions1.xlsx,6,2,0.1,0.05,congruent,left,0,0,0,0,1,1,5,1,,,,,,,,,17.10299310006667,17.10299310006667,17.10299310006667,left,1,0.37808479997329414,17.503365900018252,18.5049664999824,,,990492,001,2023-01-27_16h54.04.641,numberstroop,2022.2.4,60.064497272800374,
conditions1.xlsx,2,6,0.05,0.1,congruent,right,0,0,0,0,1,2,6,0,,,,,,,,,18.5049664999824,18.5049664999824,18.5049664999824,right,1,0.40039450000040233,18.937730800011195,19.938472700072452,,,990492,001,2023-01-27_16h54.04.641,numberstroop,2022.2.4,60.064497272800374,
conditions1.xlsx,2,6,0.1,0.05,incongruent,right,0,0,0,0,1,3,7,2,,,,,,,,,19.938472700072452,19.938472700072452,19.938472700072452,right,1,0.6556088000070304,20.62267479998991,21.6232403999893,,,990492,001,2023-01-27_16h54.04.641,numberstroop,2022.2.4,60.064497272800374,
conditions1.xlsx,2,6,0.1,0.05,incongruent,right,0,0,0,0,2,0,8,2,,,,,,,,,21.6232403999893,21.6232403999893,21.6232403999893,right,1,0.4177846999373287,22.073560200049542,23.074263300048187,,,990492,001,2023-01-27_16h54.04.641,numberstroop,2022.2.4,60.064497272800374,
conditions1.xlsx,6,2,0.05,0.1,incongruent,left,0,0,0,0,2,1,9,3,,,,,,,,,23.074263300048187,23.074263300048187,23.074263300048187,left,1,0.39189760002773255,23.491658100043423,24.49234360002447,,,990492,001,2023-01-27_16h54.04.641,numberstroop,2022.2.4,60.064497272800374,
conditions1.xlsx,6,2,0.1,0.05,congruent,left,0,0,0,0,2,2,10,1,,,,,,,,,24.49234360002447,24.49234360002447,24.49234360002447,left,1,0.4766624999465421,24.992512800032273,25.99450120003894,,,990492,001,2023-01-27_16h54.04.641,numberstroop,2022.2.4,60.064497272800374,
conditions1.xlsx,2,6,0.05,0.1,congruent,right,0,0,0,0,2,3,11,0,,,,,,,,,25.99450120003894,25.99450120003894,25.99450120003894,right,1,0.39977659995201975,26.41046990000177,27.41169139998965,,,990492,001,2023-01-27_16h54.04.641,numberstroop,2022.2.4,60.064497272800374,
conditions1.xlsx,6,2,0.1,0.05,congruent,left,0,0,0,0,3,0,12,1,,,,,,,,,27.41169139998965,27.41169139998965,27.41169139998965,left,1,0.31754740001633763,27.76150670007337,28.76482030004263,,,990492,001,2023-01-27_16h54.04.641,numberstroop,2022.2.4,60.064497272800374,
conditions1.xlsx,6,2,0.05,0.1,incongruent,left,0,0,0,0,3,1,13,3,,,,,,,,,28.76482030004263,28.76482030004263,28.76482030004263,right,0,0.3573176999343559,29.14618949999567,30.14704419998452,,,990492,001,2023-01-27_16h54.04.641,numberstroop,2022.2.4,60.064497272800374,
conditions1.xlsx,2,6,0.05,0.1,congruent,right,0,0,0,0,3,2,14,0,,,,,,,,,30.14704419998452,30.14704419998452,30.14704419998452,left,0,0.23856870003510267,30.41400930006057,31.414555600029416,,,990492,001,2023-01-27_16h54.04.641,numberstroop,2022.2.4,60.064497272800374,
conditions1.xlsx,2,6,0.1,0.05,incongruent,right,0,0,0,0,3,3,15,2,,,,,,,,,31.414555600029416,31.414555600029416,31.414555600029416,right,1,0.5071270999033004,31.948529500048608,32.94945439998992,,,990492,001,2023-01-27_16h54.04.641,numberstroop,2022.2.4,60.064497272800374,
conditions1.xlsx,6,2,0.1,0.05,congruent,left,0,0,0,0,4,0,16,1,,,,,,,,,32.94945439998992,32.94945439998992,32.94945439998992,left,1,0.3475796999409795,33.316183599992655,34.317011300008744,,,990492,001,2023-01-27_16h54.04.641,numberstroop,2022.2.4,60.064497272800374,
conditions1.xlsx,2,6,0.1,0.05,incongruent,right,0,0,0,0,4,1,17,2,,,,,,,,,34.317011300008744,34.317011300008744,34.317011300008744,right,1,0.46820650005247444,34.81739630002994,35.81839550007135,,,990492,001,2023-01-27_16h54.04.641,numberstroop,2022.2.4,60.064497272800374,
conditions1.xlsx,2,6,0.05,0.1,congruent,right,0,0,0,0,4,2,18,0,,,,,,,,,35.81839550007135,35.81839550007135,35.81839550007135,right,1,0.4478215000126511,36.285352700040676,37.286198100075126,,,990492,001,2023-01-27_16h54.04.641,numberstroop,2022.2.4,60.064497272800374,
conditions1.xlsx,6,2,0.05,0.1,incongruent,left,0,0,0,0,4,3,19,3,,,,,,,,,37.286198100075126,37.286198100075126,37.286198100075126,right,0,0.3158294999739155,37.619943500030786,38.62067430000752,,,990492,001,2023-01-27_16h54.04.641,numberstroop,2022.2.4,60.064497272800374,
conditions2.xlsx,6,2,0.1,0.1,neutral,left,0,1,1,1,0,0,0,3,,,,,38.62067430000752,38.62067430000752,space,0.9896135999588296,39.65210599999409,39.65210599999409,39.65210599999409,left,1,0.6782454999629408,40.35545649996493,41.35625010007061,,,990492,001,2023-01-27_16h54.04.641,numberstroop,2022.2.4,60.064497272800374,
conditions2.xlsx,6,2,0.1,0.1,neutral,left,0,1,1,1,0,1,1,1,,,,,,,,,41.35625010007061,41.35625010007061,41.35625010007061,left,1,0.43723099993076175,41.82330429996364,42.824263200047426,,,990492,001,2023-01-27_16h54.04.641,numberstroop,2022.2.4,60.064497272800374,
conditions2.xlsx,2,6,0.1,0.1,neutral,right,0,1,1,1,0,2,2,0,,,,,,,,,42.824263200047426,42.824263200047426,42.824263200047426,right,1,0.32135049998760223,43.17433720000554,44.175317500019446,,,990492,001,2023-01-27_16h54.04.641,numberstroop,2022.2.4,60.064497272800374,
conditions2.xlsx,2,6,0.1,0.1,neutral,right,0,1,1,1,0,3,3,2,,,,,,,,,44.175317500019446,44.175317500019446,44.175317500019446,right,1,0.30702890001703054,44.50908370001707,45.50970980001148,,,990492,001,2023-01-27_16h54.04.641,numberstroop,2022.2.4,60.064497272800374,
conditions2.xlsx,2,6,0.1,0.1,neutral,right,0,1,1,1,1,0,4,0,,,,,,,,,45.50970980001148,45.50970980001148,45.50970980001148,right,1,0.32328850007615983,45.860210000071675,46.860720700002275,,,990492,001,2023-01-27_16h54.04.641,numberstroop,2022.2.4,60.064497272800374,
conditions2.xlsx,2,6,0.1,0.1,neutral,right,0,1,1,1,1,1,5,2,,,,,,,,,46.860720700002275,46.860720700002275,46.860720700002275,right,1,0.237843899987638,47.1276610000059,48.12882850004826,,,990492,001,2023-01-27_16h54.04.641,numberstroop,2022.2.4,60.064497272800374,
conditions2.xlsx,6,2,0.1,0.1,neutral,left,0,1,1,1,1,2,6,1,,,,,,,,,48.12882850004826,48.12882850004826,48.12882850004826,right,0,0.3282545000547543,48.47880499996245,49.47984460007865,,,990492,001,2023-01-27_16h54.04.641,numberstroop,2022.2.4,60.064497272800374,
conditions2.xlsx,6,2,0.1,0.1,neutral,left,0,1,1,1,1,3,7,3,,,,,,,,,49.47984460007865,49.47984460007865,49.47984460007865,left,1,0.4175962000153959,49.929994600010104,50.93095660000108,,,990492,001,2023-01-27_16h54.04.641,numberstroop,2022.2.4,60.064497272800374,
conditions2.xlsx,6,2,0.1,0.1,neutral,left,0,1,1,1,2,0,8,3,,,,,,,,,50.93095660000108,50.93095660000108,50.93095660000108,left,1,0.35833369998726994,51.314583600033075,52.31527190003544,,,990492,001,2023-01-27_16h54.04.641,numberstroop,2022.2.4,60.064497272800374,
conditions2.xlsx,2,6,0.1,0.1,neutral,right,0,1,1,1,2,1,9,2,,,,,,,,,52.31527190003544,52.31527190003544,52.31527190003544,right,1,0.4698377000167966,52.815750000067055,,,,990492,001,2023-01-27_16h54.04.641,numberstroop,2022.2.4,60.064497272800374,
conditions2.xlsx,6,2,0.1,0.1,neutral,left,0,1,1,1,2,2,10,1,,,,,,,,,53.81670099997427,53.81670099997427,53.81670099997427,left,1,0.4729120999109,54.316930099972524,55.3178351999959,,,990492,001,2023-01-27_16h54.04.641,numberstroop,2022.2.4,60.064497272800374,
conditions2.xlsx,2,6,0.1,0.1,neutral,right,0,1,1,1,2,3,11,0,,,,,,,,,55.3178351999959,55.3178351999959,55.3178351999959,right,1,0.3957210999215022,55.73477970005479,56.73605319997296,,,990492,001,2023-01-27_16h54.04.641,numberstroop,2022.2.4,60.064497272800374,
conditions2.xlsx,2,6,0.1,0.1,neutral,right,0,1,1,1,3,0,12,0,,,,,,,,,56.73605319997296,56.73605319997296,56.73605319997296,right,1,0.3695770000340417,57.136092200060375,58.13684579997789,,,990492,001,2023-01-27_16h54.04.641,numberstroop,2022.2.4,60.064497272800374,
conditions2.xlsx,2,6,0.1,0.1,neutral,right,0,1,1,1,3,1,13,2,,,,,,,,,58.13684579997789,58.13684579997789,58.13684579997789,right,1,0.35340669995639473,58.52063030004501,59.52145390002988,,,990492,001,2023-01-27_16h54.04.641,numberstroop,2022.2.4,60.064497272800374,
conditions2.xlsx,6,2,0.1,0.1,neutral,left,0,1,1,1,3,2,14,1,,,,,,,,,59.52145390002988,59.52145390002988,59.52145390002988,left,1,0.4805922000668943,60.021893099998124,61.02279030007776,,,990492,001,2023-01-27_16h54.04.641,numberstroop,2022.2.4,60.064497272800374,
conditions2.xlsx,6,2,0.1,0.1,neutral,left,0,1,1,1,3,3,15,3,,,,,,,,,61.02279030007776,61.02279030007776,61.02279030007776,left,1,0.46756559994537383,61.52303729997948,62.52381430007517,,,990492,001,2023-01-27_16h54.04.641,numberstroop,2022.2.4,60.064497272800374,
conditions2.xlsx,6,2,0.1,0.1,neutral,left,0,1,1,1,4,0,16,1,,,,,,,,,62.52381430007517,62.52381430007517,62.52381430007517,left,1,0.5257580999750644,63.07432949997019,64.07529950002208,,,990492,001,2023-01-27_16h54.04.641,numberstroop,2022.2.4,60.064497272800374,
conditions2.xlsx,2,6,0.1,0.1,neutral,right,0,1,1,1,4,1,17,2,,,,,,,,,64.07529950002208,64.07529950002208,64.07529950002208,right,1,0.5266349000157788,64.62561350001488,65.62669130007271,,,990492,001,2023-01-27_16h54.04.641,numberstroop,2022.2.4,60.064497272800374,
conditions2.xlsx,2,6,0.1,0.1,neutral,right,0,1,1,1,4,2,18,0,,,,,,,,,65.62669130007271,65.62669130007271,65.62669130007271,right,1,0.5749209999339655,66.2269109999761,67.22801580000669,,,990492,001,2023-01-27_16h54.04.641,numberstroop,2022.2.4,60.064497272800374,
conditions2.xlsx,6,2,0.1,0.1,neutral,left,0,1,1,1,4,3,19,3,,,,,,,,,67.22801580000669,67.22801580000669,67.22801580000669,left,1,0.4708561999723315,67.72823330003303,68.72894359997008,,,990492,001,2023-01-27_16h54.04.641,numberstroop,2022.2.4,60.064497272800374,
,,,,,,,,,,,,,,,,,,,,,,,,,,,,,,,68.72894359997008,69.7299980999669,,,,,,,
